File: Module-2/HZM_HSI-XRF_1mm_calibrated_06-05-2024.csv
Depth_mm_HSI_composite;Core.Y..mm.;R660R670;R570R630;Rmean;RABD620;RABD671;RABD715;RABD845;RABA620...RABD.;RABA670...RABD.;RABA715...RABD.;RABA840...RABD.;RABD671cal;RABD845cal;sample ID;comp_depth_mm;position (mm);Mg;Al;Si;P;S;Ar;K;Ca;Ti;Mn;Fe;Ni;Cu;Zn;Ga;Se;Br;Rb;Sr;Y;Zr;Sn;Sb;Cs;Ba;La;Pr;Sm;Ta;Pb;Bi;Cr kb;S1;Ca ka Cr ka;W la;W lb1;W lb2;W La scat;W Lb1 scat;d1;d2;d3;Ca ka + Fe kb?;Ca ka + Fe ka;Fe a+a;Fe a+ Cr a;s2;Cr inc;Cr coh;Cr cor/inc;Dt;filename;comp_round_depth;depth_VT22;mean_VT22;min_VT22;max_VT22;error_VT22
0;0;0.993513;0.926673;0.097073;1.00315;1.02778;1.00251;0.988419;1.0236;1.02588;1.01034;1.0055;10.8972;0;54247;10989;30.6;0;60;671;63;80;893;4873;9082;4251;1579;25988;85;81;159;49;0;50;219;271;50;188;50;71;0;325;45;123;79;108;87;110;2652;407;0;373;159;103;123;51;24;102;156;0;0;0;27;0;10671;15601;1.462;0.175;L:\#Projekte\Holzmaar 2019 - HZM19\XRF\HMZ19\HZM19-10\HZM19-10-7\HZM19_10_07_Cr_200um_foil\XRF data\L000003.spe;109890;10989;11750;11575;11944;184.5
27;27;0.998611;0.973149;0.103911;1.00468;1.02006;1.00355;0.988295;1.02037;1.02145;1.0121;1.0061;8.66532;0;54382;11016;57.6;22;71;869;77;25;886;6034;3730;4603;1592;31563;50;99;152;32;90;0;144;208;75;274;108;0;0;372;127;62;152;105;51;115;2958;502;11;349;230;38;135;128;53;28;37;17;16;18;138;0;11683;16936;1.44963;0.196;L:\#Projekte\Holzmaar 2019 - HZM19\XRF\HMZ19\HZM19-10\HZM19-10-7\HZM19_10_07_Cr_200um_foil\XRF data\L000138.spe;110160;11016;11777;11595;11976;190.5
54;54;0.998742;0.972575;0.108879;1.00404;1.02167;1.00294;0.985952;1.02;1.02073;1.01131;1.00468;9.13082;0;54517;11043;84.6;0;123;893;119;49;1014;7282;3956;4942;1743;30131;69;97;182;68;25;6;330;213;0;316;76;36;26;397;57;126;123;81;76;131;3142;423;0;293;236;106;102;68;0;88;88;0;0;132;75;0;11593;17008;1.46709;0.194;L:\#Projekte\Holzmaar 2019 - HZM19\XRF\HMZ19\HZM19-10\HZM19-10-7\HZM19_10_07_Cr_200um_foil\XRF data\L000273.spe;110430;11043;11804;11616;12011;197.5
81;81;0.997907;0.988816;0.113282;1.00355;1.01945;1.00382;0.993324;1.02388;1.02091;1.01087;1.00612;8.49098;0;54652;11070;111.6;19;160;1053;145;13;1015;8782;3378;4445;2588;32187;56;90;122;48;53;0;291;154;28;256;90;36;5;269;76;150;150;34;29;48;3055;480;15;346;161;130;185;105;61;68;74;105;0;156;124;0;11237;18150;1.6152;0.195;L:\#Projekte\Holzmaar 2019 - HZM19\XRF\HMZ19\HZM19-10\HZM19-10-7\HZM19_10_07_Cr_200um_foil\XRF data\L000408.spe;110700;11070;11831;11638;12052;207
107;107;0.996012;0.954003;0.0871392;1.00521;1.02399;1.0031;0.989541;1.02459;1.0249;1.01299;1.00864;9.80123;0;54783;11096;137.6;13;146;1080;89;51;990;9188;3488;5594;1791;28275;65;120;198;96;46;13;286;232;96;323;74;33;23;202;103;167;98;29;0;86;3069;438;0;313;232;87;124;110;148;110;46;0;0;77;109;67;11170;17476;1.56455;0.193;L:\#Projekte\Holzmaar 2019 - HZM19\XRF\HMZ19\HZM19-10\HZM19-10-7\HZM19_10_07_Cr_200um_foil\XRF data\L000538.spe;110960;11096;12543;12361;12665;152
134;134;0.993908;0.959638;0.0854908;1.00205;1.02172;1.00301;0.996925;1.02453;1.02637;1.01233;1.00834;9.14558;0;54918;11123;164.6;0;151;1145;114;141;1115;8288;4509;6634;1916;29450;73;127;168;41;5;0;272;316;60;288;127;27;8;199;61;173;128;21;45;50;2916;444;37;351;193;76;129;103;60;89;188;14;11;0;126;149;10458;16645;1.5916;0.187;L:\#Projekte\Holzmaar 2019 - HZM19\XRF\HMZ19\HZM19-10\HZM19-10-7\HZM19_10_07_Cr_200um_foil\XRF data\L000673.spe;111230;11123;12568;12396;12686;145
161;161;0.986355;0.928804;0.112202;1.00187;1.01823;1.00258;0.986903;1.02006;1.02094;1.01113;1.00387;8.13678;0;55053;11150;191.6;0;113;970;133;45;999;6737;5069;6065;3047;31340;78;81;175;28;128;0;231;229;0;213;43;32;12;400;79;109;139;119;0;0;2909;406;56;330;196;104;110;26;80;47;0;146;0;119;66;0;10796;16458;1.52445;0.191;L:\#Projekte\Holzmaar 2019 - HZM19\XRF\HMZ19\HZM19-10\HZM19-10-7\HZM19_10_07_Cr_200um_foil\XRF data\L000808.spe;111500;11150;12598;12433;12711;139
188;188;0.990784;0.921483;0.120351;1.0049;1.0347;1.00057;0.991183;1.02202;1.02899;1.00556;1.00357;12.8941;0;55188;11177;218.6;23;108;1223;164;90;1084;5680;4924;4597;4144;26765;48;33;87;27;0;0;249;300;47;283;72;57;40;443;109;115;159;125;29;58;3018;358;4;334;204;196;115;16;0;66;114;0;0;106;17;0;11371;17713;1.55773;0.19;L:\#Projekte\Holzmaar 2019 - HZM19\XRF\HMZ19\HZM19-10\HZM19-10-7\HZM19_10_07_Cr_200um_foil\XRF data\L000943.spe;111770;11177;12630;12469;12743;137
214;214;0.987137;0.902919;0.138978;1.00556;1.03746;1.00378;0.994189;1.02113;1.03209;1.00745;1.00587;13.6933;0;55319;11203;244.6;16;66;1024;0;163;1092;4606;34252;4404;1382;19533;56;69;113;35;46;0;242;511;0;214;58;302;0;229;101;113;24;74;113;55;2707;257;34;390;244;49;98;123;0;90;81;103;38;38;86;29;10232;15090;1.47478;0.192;L:\#Projekte\Holzmaar 2019 - HZM19\XRF\HMZ19\HZM19-10\HZM19-10-7\HZM19_10_07_Cr_200um_foil\XRF data\L001073.spe;112030;11203;12662;12513;12775;131
241;241;0.994697;0.934908;0.114205;1.00585;1.04809;1.00072;0.992951;1.02235;1.03988;1.00881;1.00447;16.7634;0;55454;11230;271.6;0;57;1135;97;150;1041;5187;5745;4492;3396;23648;56;83;138;53;94;0;158;363;84;273;61;85;50;414;106;155;144;85;50;110;2963;352;5;309;236;130;154;46;35;62;44;35;0;84;148;0;11405;17921;1.57133;0.184;L:\#Projekte\Holzmaar 2019 - HZM19\XRF\HMZ19\HZM19-10\HZM19-10-7\HZM19_10_07_Cr_200um_foil\XRF data\L001208.spe;112300;11230;12695;12549;12804;127.5
268;268;0.996242;0.935848;0.117982;1.006;1.05353;1.00106;0.993774;1.02382;1.04404;1.00741;1.00506;18.3338;0;55589;11257;298.6;22;111;1147;77;223;1147;6188;6670;4349;1944;26031;74;81;105;32;20;12;242;258;107;260;79;47;0;443;93;94;101;91;72;47;2778;525;56;305;201;112;136;139;118;121;61;0;0;105;66;0;10886;16809;1.54409;0.187;L:\#Projekte\Holzmaar 2019 - HZM19\XRF\HMZ19\HZM19-10\HZM19-10-7\HZM19_10_07_Cr_200um_foil\XRF data\L001343.spe;112570;11257;12727;12593;12837;122
295;295;1.01433;0.922619;0.122137;1.01275;1.10133;1.00774;1.06237;1.02637;1.08642;1.01405;1.06459;32.1446;7.22658;55724;11284;325.6;15;92;1034;24;236;1019;3102;13003;2171;1916;30613;39;74;77;0;81;0;167;262;0;245;25;68;0;213;54;123;139;136;16;186;3095;429;106;330;248;51;119;40;59;19;90;0;13;151;144;21;11735;17964;1.53081;0.199;L:\#Projekte\Holzmaar 2019 - HZM19\XRF\HMZ19\HZM19-10\HZM19-10-7\HZM19_10_07_Cr_200um_foil\XRF data\L001478.spe;112840;11284;12760;12633;12866;116.5
322;322;0.990278;0.929741;0.0966643;1.00516;1.03403;1.00058;0.993647;1.02351;1.03019;1.00574;1.00753;12.7009;0;55859;11311;352.6;14;74;996;22;662;1020;2709;20439;1472;2054;27561;73;94;65;25;11;0;174;404;86;258;54;205;17;188;59;138;115;85;51;74;2991;460;40;304;300;99;109;142;8;0;0;0;0;85;94;25;11327;17064;1.50649;0.196;L:\#Projekte\Holzmaar 2019 - HZM19\XRF\HMZ19\HZM19-10\HZM19-10-7\HZM19_10_07_Cr_200um_foil\XRF data\L001613.spe;113110;11311;12793;12671;12894;111.5
349;349;1.01382;0.930832;0.107142;1.00856;1.08837;1.00089;1.02015;1.02153;1.07169;1.00588;1.0245;28.3992;3.61024;55994;11338;379.6;21;87;947;0;451;992;3829;24369;2355;1258;23707;85;74;76;7;31;15;195;445;0;271;33;309;19;243;33;184;92;76;70;54;3038;401;38;338;267;64;83;105;19;74;145;53;49;122;57;26;11887;16641;1.39993;0.2;L:\#Projekte\Holzmaar 2019 - HZM19\XRF\HMZ19\HZM19-10\HZM19-10-7\HZM19_10_07_Cr_200um_foil\XRF data\L001748.spe;113380;11338;12826;12711;12920;104.5
376;376;0.989882;0.929307;0.108242;1.00771;1.05048;1.0019;0.997167;1.02279;1.04016;1.00598;1.00672;17.4533;0;56129;11365;406.6;32;88;1003;0;232;942;4630;21318;2715;1283;20449;69;63;127;8;10;0;265;411;77;280;39;192;0;212;55;150;92;87;51;52;2895;397;65;372;273;18;138;107;0;222;92;14;110;56;94;22;11800;16811;1.42466;0.198;L:\#Projekte\Holzmaar 2019 - HZM19\XRF\HMZ19\HZM19-10\HZM19-10-7\HZM19_10_07_Cr_200um_foil\XRF data\L001883.spe;113650;11365;12858;12750;12942;96
403;403;0.992869;0.928386;0.103423;1.00378;1.02733;1.00006;0.99227;1.02378;1.02699;1.00714;1.00595;10.7659;0;56264;11392;433.6;19;63;899;0;847;1117;4280;58899;2985;754;20579;102;58;42;37;28;33;118;730;126;237;45;581;0;191;42;130;48;41;40;88;2134;299;86;330;223;104;51;84;0;26;72;0;60;0;125;0;9154;13829;1.51071;0.205;L:\#Projekte\Holzmaar 2019 - HZM19\XRF\HMZ19\HZM19-10\HZM19-10-7\HZM19_10_07_Cr_200um_foil\XRF data\L002018.spe;113920;11392;12889;12791;12964;86.5
430;430;1.00237;0.967806;0.117154;1.00545;1.05121;1.00323;1.004;1.01914;1.03994;1.008;1.01061;17.6652;2.22743;56399;11419;460.6;42;167;1086;38;205;1128;7030;7340;3751;942;20338;115;96;149;15;41;11;310;215;111;384;69;40;20;305;98;89;119;147;25;70;2988;332;77;401;280;83;73;113;75;55;52;0;0;111;49;0;11428;17724;1.55093;0.188;L:\#Projekte\Holzmaar 2019 - HZM19\XRF\HMZ19\HZM19-10\HZM19-10-7\HZM19_10_07_Cr_200um_foil\XRF data\L002153.spe;114190;11419;12915;12828;12981;76.5
457;457;1.00603;0.967134;0.121895;1.00588;1.07942;0.999689;0.994305;1.02223;1.06688;1.00432;1.00628;25.8132;0;56534;11446;487.6;47;127;1096;0;118;1109;7577;6234;3998;682;19015;104;90;144;74;40;64;322;279;116;327;42;60;41;246;68;150;104;40;41;95;3053;346;17;277;271;97;142;93;18;89;52;77;16;82;71;11;11359;17438;1.53517;0.187;L:\#Projekte\Holzmaar 2019 - HZM19\XRF\HMZ19\HZM19-10\HZM19-10-7\HZM19_10_07_Cr_200um_foil\XRF data\L002288.spe;114460;11446;12941;12864;12997;66.5
484;484;1.00603;0.922951;0.122939;1.00638;1.08217;1.00504;1.02899;1.02222;1.06585;1.01017;1.03297;26.6078;4.36757;56669;11473;514.6;19;86;1205;0;106;1113;4113;20047;2805;681;13949;74;93;92;23;0;0;207;452;43;333;51;196;27;233;88;158;96;70;18;41;2782;264;44;346;238;66;151;112;31;205;138;37;65;40;144;58;11527;16676;1.44669;0.191;L:\#Projekte\Holzmaar 2019 - HZM19\XRF\HMZ19\HZM19-10\HZM19-10-7\HZM19_10_07_Cr_200um_foil\XRF data\L002423.spe;114730;11473;12967;12908;13013;52.5
511;511;1.00067;0.892718;0.174563;1.00617;1.075;1.00311;1.04034;1.01947;1.06181;1.00524;1.04271;24.5366;5.34006;56804;11500;541.6;0;60;1151;0;106;1127;2611;52316;1540;1298;11639;101;56;28;39;41;0;149;711;30;287;72;644;32;231;71;174;101;40;43;85;2475;223;64;288;233;56;164;144;65;37;143;0;20;99;74;38;10908;14545;1.33343;0.203;L:\#Projekte\Holzmaar 2019 - HZM19\XRF\HMZ19\HZM19-10\HZM19-10-7\HZM19_10_07_Cr_200um_foil\XRF data\L002558.spe;115000;11500;12991;12954;13028;37
538;538;0.991842;0.930914;0.132543;1.00167;1.0242;1.00219;0.992781;1.01506;1.02144;1.00762;1.00458;9.86226;0;56942;11527;568.6;5;77;1105;0;261;1135;8333;35816;5519;891;16134;51;70;70;75;63;19;195;1341;46;322;96;395;13;345;75;116;106;20;48;84;2425;231;0;327;236;117;120;96;84;77;118;0;37;12;105;0;9471;14253;1.50491;0.18;L:\#Projekte\Holzmaar 2019 - HZM19\XRF\HMZ19\HZM19-10\HZM19-10-7\HZM19_10_07_Cr_200um_foil\XRF data\L002693.spe;115270;11527;13011;12984;13043;29.5
565;565;0.993697;0.913934;0.120399;1.00168;1.02149;1.00154;0.993182;1.0217;1.02309;1.00477;1.00849;9.0791;0;57077;11554;595.6;0;99;1217;0;165;1177;12140;25627;5243;596;11910;24;48;110;0;79;0;350;1538;39;443;249;247;0;395;121;92;98;79;32;140;2697;207;92;270;218;80;115;114;23;99;62;0;31;80;145;0;8546;15158;1.7737;0.166;L:\#Projekte\Holzmaar 2019 - HZM19\XRF\HMZ19\HZM19-10\HZM19-10-7\HZM19_10_07_Cr_200um_foil\XRF data\L002828.spe;115540;11554;13011;12984;13043;29.5
592;592;0.986674;0.900387;0.132722;1.0041;1.04456;1.00288;0.993945;1.02223;1.03705;1.00607;1.00564;15.7439;0;57212;11581;622.6;38;50;740;0;133;1090;4032;57041;3725;476;12569;87;87;75;56;0;0;176;1382;25;317;92;581;0;426;103;83;85;0;30;0;2564;212;0;273;218;80;197;176;5;69;189;113;61;0;106;0;10231;14313;1.39898;0.193;L:\#Projekte\Holzmaar 2019 - HZM19\XRF\HMZ19\HZM19-10\HZM19-10-7\HZM19_10_07_Cr_200um_foil\XRF data\L002963.spe;115810;11581;13011;12984;13043;29.5
619;619;0.99467;0.926894;0.104236;1.00159;1.03089;1.00095;0.995092;1.02762;1.03007;1.00671;1.0068;11.7955;0;57347;11608;649.6;12;68;929;0;255;1148;8586;42023;7125;533;11784;69;79;59;44;78;19;298;2129;0;420;168;452;39;738;129;62;92;27;65;0;2133;232;0;209;170;8;141;67;33;51;9;0;0;33;0;0;9267;13295;1.43466;0.176;L:\#Projekte\Holzmaar 2019 - HZM19\XRF\HMZ19\HZM19-10\HZM19-10-7\HZM19_10_07_Cr_200um_foil\XRF data\L003098.spe;116080;11608;13011;12984;13043;29.5
646;646;0.982479;0.928697;0.0590616;0.998377;1.00314;1.00066;0.987258;1.03354;1.0246;1.01479;1.01465;3.77744;0;57482;11635;676.6;0;137;1677;0;363;1051;18218;10835;5502;249;12010;0;27;91;38;48;0;262;2289;44;354;302;40;0;356;89;79;40;51;8;33;1966;240;0;189;163;62;67;7;12;88;61;45;12;33;30;0;4667;7464;1.59931;0.125;L:\#Projekte\Holzmaar 2019 - HZM19\XRF\HMZ19\HZM19-10\HZM19-10-7\HZM19_10_07_Cr_200um_foil\XRF data\L003233.spe;116350;11635;13011;12984;13043;29.5
673;673;0.990376;0.92187;0.134324;1.00397;1.04622;1.00036;0.99566;1.01712;1.03687;1.00481;1.00638;16.2222;0;57617;11662;703.6;43;74;854;0;134;1056;6696;42121;3430;475;10180;61;47;122;24;36;9;287;1124;63;373;157;467;41;287;46;131;108;110;58;0;2481;210;37;334;180;101;58;118;0;0;169;162;42;100;133;51;10235;14505;1.4172;0.187;L:\#Projekte\Holzmaar 2019 - HZM19\XRF\HMZ19\HZM19-10\HZM19-10-7\HZM19_10_07_Cr_200um_foil\XRF data\L003368.spe;116620;11662;13011;12984;13043;29.5
700;700;0.991269;0.9336;0.0679149;1.00014;1.01079;1.00209;0.989284;1.03332;1.02233;1.01006;1.01141;5.98942;0;57752;11689;730.6;23;142;1314;10;55;1244;15337;10432;7188;581;12824;27;78;107;87;23;0;341;2460;72;479;191;0;10;258;97;31;57;0;63;106;1394;184;44;378;165;109;91;121;0;33;67;0;0;0;108;14;5025;15246;3.03403;0.141;L:\#Projekte\Holzmaar 2019 - HZM19\XRF\HMZ19\HZM19-10\HZM19-10-7\HZM19_10_07_Cr_200um_foil\XRF data\L003503.spe;116890;11689;13011;12984;13043;29.5
727;727;1.00029;0.915141;0.174847;1.00757;1.07629;1.00104;1.01246;1.01918;1.06274;1.00462;1.01733;24.9097;2.95145;57890;11716;757.6;45;73;1085;0;246;1049;2650;71124;1667;1526;19422;88;30;17;9;26;0;143;906;67;233;33;865;0;204;42;133;94;93;33;89;2415;335;67;278;229;36;64;18;28;78;174;0;167;70;165;21;9417;14374;1.52639;0.223;L:\#Projekte\Holzmaar 2019 - HZM19\XRF\HMZ19\HZM19-10\HZM19-10-7\HZM19_10_07_Cr_200um_foil\XRF data\L003638.spe;117160;11716;13024;12993;13062;34.5
754;754;1.00683;0.920568;0.171838;1.00634;1.08149;1.00225;1.02025;1.01865;1.06594;1.00574;1.02417;26.4115;3.61915;58025;11743;784.6;0;54;1249;0;68;980;2673;52721;1694;1136;15049;92;72;81;86;0;11;153;729;0;199;49;623;8;165;68;153;106;85;64;61;2504;300;31;423;290;122;105;158;110;127;100;14;70;67;81;37;10416;15457;1.48397;0.209;L:\#Projekte\Holzmaar 2019 - HZM19\XRF\HMZ19\HZM19-10\HZM19-10-7\HZM19_10_07_Cr_200um_foil\XRF data\L003773.spe;117430;11743;13069;13011;13151;70
781;1.9114;1.01322;0.941903;0.0835517;1.021;1.10383;1.00807;1.02959;1.07022;1.09746;1.00624;1.03887;32.865;4.41948;58154;11770;711;;;;;;;;;;;;;;;;;;;;;;;;;;;;;;;;;;;;;;;;;;;;;;;;;;#DIV/0!;0.118;L:\#Projekte\Holzmaar - Diatoms\HZM19-11_Lujan\HZM19_11-07_W_(foil) - xrf\XRF data\L000708.spe;117700;11770;13110;13029;13223;97
808;28.9114;0.99243;0.886575;0.158461;1.00719;1.08824;1.00275;1.03867;1.01469;1.0713;1.01002;1.04329;28.361;5.19671;58181;11797;738;0;19;973;0;129;1069;2890;35696;1755;510;11988;56;136;89;109;107;15;104;453;41;182;60;371;31;148;28;137;52;98;38;31;2872;163;0;513;378;133;162;192;24;0;56;100;27;149;76;58;10367;14987;1.44564;0.188;L:\#Projekte\Holzmaar - Diatoms\HZM19-11_Lujan\HZM19_11-07_W_(foil) - xrf\XRF data\L000735.spe;117970;11797;13149;13049;13280;115.5
835;55.9114;1.00946;0.959456;0.144106;1.00973;1.08133;1.00238;1.0455;1.02331;1.06604;1.0047;1.04994;26.3648;5.78197;58208;11824;765;0;59;938;45;233;1092;4055;15502;2381;469;17880;77;127;76;126;17;0;243;357;24;188;62;144;12;207;84;160;72;144;0;76;2792;305;0;469;398;65;162;225;0;60;42;60;0;98;21;0;10213;15147;1.48311;0.178;L:\#Projekte\Holzmaar - Diatoms\HZM19-11_Lujan\HZM19_11-07_W_(foil) - xrf\XRF data\L000762.spe;118240;11824;13188;13073;13331;129
862;82.9114;1.00537;0.963577;0.137822;1.00646;1.0714;1.00454;1.01631;1.01698;1.05845;1.01292;1.02246;23.4972;3.28174;58235;11851;792;44;72;908;0;181;1177;4314;19715;2505;239;13887;69;114;115;77;20;7;236;451;55;191;79;170;13;266;60;144;36;178;29;65;2759;179;114;468;446;113;233;177;20;61;152;78;0;67;39;22;11063;15240;1.37756;0.184;L:\#Projekte\Holzmaar - Diatoms\HZM19-11_Lujan\HZM19_11-07_W_(foil) - xrf\XRF data\L000789.spe;118510;11851;13227;13101;13374;136.5
889;109.9114;0.985497;0.904644;0.11987;1.00699;1.04226;1.00085;0.994739;1.02075;1.03552;1.00502;1.00479;15.0807;0;58262;11878;819;0;46;624;0;295;1182;2855;54713;1898;680;11517;112;86;41;47;66;0;153;842;0;140;56;542;0;150;45;124;61;99;0;61;2161;176;56;490;365;187;167;151;72;99;0;0;0;0;60;28;9104;12677;1.39246;0.192;L:\#Projekte\Holzmaar - Diatoms\HZM19-11_Lujan\HZM19_11-07_W_(foil) - xrf\XRF data\L000816.spe;118780;11878;13265;13131;13419;144
916;136.9114;1.0005;0.926544;0.150464;1.00855;1.07116;1.00127;1.01433;1.01765;1.05762;1.00542;1.02191;23.4285;3.11164;58289;11905;846;9;80;813;5;124;1119;5954;13652;2974;396;17937;66;80;108;65;143;0;259;321;83;236;97;152;50;214;54;205;67;173;25;96;2664;297;19;484;348;183;157;182;71;66;52;123;41;75;55;0;9742;15305;1.57103;0.18;L:\#Projekte\Holzmaar - Diatoms\HZM19-11_Lujan\HZM19_11-07_W_(foil) - xrf\XRF data\L000843.spe;119050;11905;13303;13160;13460;150
943;163.9114;0.992433;0.907734;0.143976;1.00577;1.05586;1.00086;1.01912;1.01621;1.04603;1.00661;1.02507;19.0082;3.52243;58316;11932;873;0;32;826;0;190;1099;3159;31799;2205;707;12319;96;108;52;24;9;24;150;583;39;194;75;393;49;265;37;181;105;141;53;0;2457;200;98;486;400;206;123;285;26;156;194;121;29;77;24;35;10338;14007;1.3549;0.185;L:\#Projekte\Holzmaar - Diatoms\HZM19-11_Lujan\HZM19_11-07_W_(foil) - xrf\XRF data\L000870.spe;119320;11932;13342;13192;13501;154.5
970;190.9114;0.991384;0.90204;0.163556;1.00664;1.05786;1.00037;1.0053;1.01358;1.04606;1.0055;1.01297;19.5852;2.33882;58343;11959;900;0;76;911;0;120;1038;4255;26861;2477;610;13452;94;132;52;104;74;42;239;516;0;187;109;316;16;222;110;104;61;128;88;90;2523;268;9;506;430;113;205;178;73;87;91;26;0;38;49;7;10096;14997;1.48544;0.187;L:\#Projekte\Holzmaar - Diatoms\HZM19-11_Lujan\HZM19_11-07_W_(foil) - xrf\XRF data\L000897.spe;119590;11959;13380;13225;13546;160.5
997;217.9114;0.977199;0.908215;0.123483;1.00506;1.03676;1.00062;1.00903;1.01317;1.03358;1.01047;1.0126;13.4896;2.65776;58370;11986;927;22;71;685;0;152;1110;3266;29938;2302;1433;11660;76;97;55;65;69;42;190;675;49;186;51;366;25;188;46;133;41;112;0;142;2330;164;99;502;360;213;117;250;85;78;81;0;0;83;83;67;9925;13718;1.38217;0.176;L:\#Projekte\Holzmaar - Diatoms\HZM19-11_Lujan\HZM19_11-07_W_(foil) - xrf\XRF data\L000924.spe;119860;11986;13419;13258;13585;163.5
1024;244.9114;1.00573;0.941554;0.142253;1.00661;1.07704;1.00298;1.01089;1.01832;1.06291;1.00625;1.0181;25.1258;2.81704;58397;12013;954;0;52;800;0;337;1203;2668;48166;1800;501;16672;101;76;46;20;27;19;131;755;0;150;80;507;0;143;36;124;60;179;70;0;2245;241;73;411;363;214;112;105;37;67;93;115;27;0;119;49;9058;12650;1.39656;0.19;L:\#Projekte\Holzmaar - Diatoms\HZM19-11_Lujan\HZM19_11-07_W_(foil) - xrf\XRF data\L000951.spe;120130;12013;13457;13292;13621;164.5
1051;271.9114;0.991556;0.876639;0.171878;1.00412;1.06205;0.999719;1.01301;1.00798;1.05242;1.00324;1.02095;20.7976;2.99883;58424;12040;981;0;63;1015;0;286;1170;3054;46967;2136;1109;12325;64;35;54;0;71;64;120;665;88;158;66;523;0;259;64;113;68;177;0;69;2401;225;145;466;359;122;75;174;50;129;14;109;85;166;46;0;8897;13450;1.51175;0.185;L:\#Projekte\Holzmaar - Diatoms\HZM19-11_Lujan\HZM19_11-07_W_(foil) - xrf\XRF data\L000978.spe;120400;12040;13493;13325;13656;165.5
1078;298.9114;0.996625;0.924827;0.115757;1.00719;1.07217;1.00096;0.995025;1.01819;1.05778;1.0038;1.00588;23.7207;0;58451;12067;1008;0;53;828;0;133;1153;3159;14750;2039;432;11595;93;83;86;50;36;27;124;297;24;184;64;124;36;216;55;158;33;218;77;55;2882;150;8;508;377;116;188;168;35;80;191;63;60;26;23;57;11371;15615;1.37323;0.177;L:\#Projekte\Holzmaar - Diatoms\HZM19-11_Lujan\HZM19_11-07_W_(foil) - xrf\XRF data\L001005.spe;120670;12067;13526;13355;13693;169
1105;23.8962;0.983482;0.885425;0.190623;1.00488;1.05222;0.999808;1.01041;1.0134;1.04158;1.00777;1.01484;17.9562;2.77629;58478;12094;94;0;53;1363;0;535;982;2895;60563;1854;428;8930;108;32;33;0;0;0;82;645;0;106;49;422;9;112;12;173;5;42;0;25;2662;133;91;37;38;0;46;0;0;80;29;46;70;94;77;31;9688;15371;1.5866;0.198;L:\#Projekte\Holzmaar 2019 - HZM19\XRF\HMZ19\HZM19-10\HZM19-10-8\HZM19-10-8\XRF data\L000084.spe;120940;12094;13560;13385;13722;168.5
1132;50.8962;0.991097;0.926918;0.126329;1.00732;1.04448;1.00157;0.992359;1.02188;1.03403;1.00731;1.00436;15.7196;0;58505;12121;121;0;126;1524;0;313;907;4795;39805;2915;1488;9960;83;92;118;0;131;12;195;483;30;124;41;286;18;142;36;177;0;11;52;105;2660;145;58;73;0;0;55;0;47;0;0;0;75;12;0;77;9798;16413;1.67514;0.186;L:\#Projekte\Holzmaar 2019 - HZM19\XRF\HMZ19\HZM19-10\HZM19-10-8\HZM19-10-8\XRF data\L000111.spe;121210;12121;13593;13419;13755;168
1159;77.8962;0.996536;0.926646;0.147491;1.00959;1.0577;1.00122;0.996009;1.02446;1.04604;1.00646;1.00576;19.5385;0;58532;12148;148;0;93;1547;0;270;980;5628;20919;3159;2898;11679;101;71;88;50;62;5;169;277;68;168;89;102;17;138;76;172;0;0;51;50;2993;182;0;57;0;0;48;0;0;0;0;0;0;11;50;81;10657;17650;1.65619;0.178;L:\#Projekte\Holzmaar 2019 - HZM19\XRF\HMZ19\HZM19-10\HZM19-10-8\HZM19-10-8\XRF data\L000138.spe;121480;12148;13627;13452;13783;165.5
1186;104.8962;1.00118;0.925396;0.154294;1.00666;1.06579;1.00234;0.991255;1.02121;1.05239;1.00488;1.00443;21.8761;0;58559;12175;175;0;45;1327;0;241;1080;2253;45250;1447;687;6558;71;27;65;0;111;25;64;633;63;118;29;386;0;164;70;133;0;47;15;0;2852;49;61;94;0;0;6;0;0;0;0;103;0;16;0;18;10198;15619;1.53157;0.181;L:\#Projekte\Holzmaar 2019 - HZM19\XRF\HMZ19\HZM19-10\HZM19-10-8\HZM19-10-8\XRF data\L000165.spe;121750;12175;13660;13488;13814;163
1213;131.8962;0.996413;0.906823;0.161643;1.00861;1.06787;1.0023;0.991928;1.02355;1.05247;1.00494;1.00322;22.4785;0;58586;12202;202;6;42;1254;0;157;1109;2257;38029;1969;577;5776;87;90;57;20;30;0;69;541;123;108;42;301;40;167;9;178;0;0;70;31;2932;65;48;77;20;0;25;15;79;115;13;0;46;0;0;31;11284;16032;1.42077;0.175;L:\#Projekte\Holzmaar 2019 - HZM19\XRF\HMZ19\HZM19-10\HZM19-10-8\HZM19-10-8\XRF data\L000192.spe;122020;12202;13695;13523;13845;161
1240;158.8962;0.993265;0.915074;0.12334;1.0043;1.03616;1.00383;0.989215;1.02047;1.03035;1.00701;1.00397;13.3174;0;58613;12229;229;0;70;1162;0;284;1170;4030;59413;3417;705;8059;97;76;67;0;19;40;94;742;21;126;48;462;16;141;34;132;0;0;0;57;2235;148;93;60;0;0;13;0;17;45;14;0;40;65;0;49;8973;14057;1.56659;0.183;L:\#Projekte\Holzmaar 2019 - HZM19\XRF\HMZ19\HZM19-10\HZM19-10-8\HZM19-10-8\XRF data\L000219.spe;122290;12229;13730;13558;13883;162.5
1267;185.8962;0.989864;0.915992;0.154526;1.00506;1.04986;1.00142;0.992768;1.01841;1.03921;1.00746;1.00454;17.2738;0;58640;12256;256;0;64;1334;0;139;1155;2820;55247;2238;508;5772;94;47;69;18;14;0;132;650;63;107;70;459;38;197;53;161;10;0;80;139;2678;90;8;67;0;0;34;0;0;0;12;0;4;28;37;40;9798;15177;1.54899;0.183;L:\#Projekte\Holzmaar 2019 - HZM19\XRF\HMZ19\HZM19-10\HZM19-10-8\HZM19-10-8\XRF data\L000246.spe;122560;12256;13764;13594;13921;163.5
1294;212.8962;0.989268;0.912495;0.134434;1.00527;1.02916;1.00218;0.992521;1.01675;1.02499;1.00636;1.00557;11.2953;0;58667;12283;283;0;37;1254;0;311;1118;4369;59787;3980;452;8783;86;45;59;0;0;9;129;663;13;110;43;448;13;171;0;172;0;48;31;53;2321;119;54;117;0;0;0;4;18;68;108;0;29;63;37;35;8616;14357;1.66632;0.185;L:\#Projekte\Holzmaar 2019 - HZM19\XRF\HMZ19\HZM19-10\HZM19-10-8\HZM19-10-8\XRF data\L000273.spe;122830;12283;13796;13619;13961;171
1321;239.8962;0.987464;0.911079;0.139779;1.00648;1.044;1.0024;0.993376;1.02135;1.03519;1.00782;1.00418;15.5819;0;58694;12310;310;0;42;1225;0;196;1108;3394;69248;2662;825;6435;98;20;9;0;27;80;108;924;57;96;66;492;27;130;18;140;13;20;10;15;2364;58;37;13;0;0;0;0;0;40;69;0;60;78;0;76;9332;14310;1.53343;0.194;L:\#Projekte\Holzmaar 2019 - HZM19\XRF\HMZ19\HZM19-10\HZM19-10-8\HZM19-10-8\XRF data\L000300.spe;123100;12310;13825;13641;13997;178
1348;266.8962;0.991133;0.892523;0.201666;1.00722;1.04495;1.0014;0.989482;1.02074;1.03373;1.00389;1.00393;15.8558;0;58721;12337;337;0;97;1539;0;144;1149;3791;60730;3132;648;7231;71;14;26;0;23;22;183;668;37;123;80;501;10;8;0;216;0;0;0;59;2595;74;32;59;0;0;0;0;81;0;0;0;0;39;0;169;9260;14300;1.54428;0.193;L:\#Projekte\Holzmaar 2019 - HZM19\XRF\HMZ19\HZM19-10\HZM19-10-8\HZM19-10-8\XRF data\L000327.spe;123370;12337;13854;13666;14031;182.5
1375;293.8962;0.989747;0.901475;0.152286;1.0049;1.04187;1.00129;0.994191;1.01745;1.03343;1.00703;1.00471;14.9671;0;58748;12364;364;0;28;1151;0;332;1139;2515;72863;1777;2433;8243;90;29;9;0;0;0;82;791;79;86;30;574;13;108;15;148;29;35;52;0;2393;65;64;80;0;0;0;0;22;56;83;0;64;41;45;91;9108;14342;1.57466;0.203;L:\#Projekte\Holzmaar 2019 - HZM19\XRF\HMZ19\HZM19-10\HZM19-10-8\HZM19-10-8\XRF data\L000354.spe;123640;12364;13883;13691;14071;190
1402;320.8962;0.998383;0.937385;0.165857;1.00518;1.02401;1.00196;0.993593;1.01254;1.0215;1.00723;1.00502;9.80877;0;58775;12391;391;0;104;1629;0;522;1119;6606;32347;5124;968;15446;77;98;89;22;11;46;247;382;11;133;57;212;12;139;16;157;46;0;115;178;2621;243;14;35;24;14;45;28;0;84;91;0;43;0;82;94;9154;15201;1.66059;0.163;L:\#Projekte\Holzmaar 2019 - HZM19\XRF\HMZ19\HZM19-10\HZM19-10-8\HZM19-10-8\XRF data\L000381.spe;123910;12391;13912;13722;14102;190
1429;347.8962;0.984033;0.91199;0.12611;1.00783;1.03441;1.0015;0.991408;1.02101;1.02736;1.00724;1.00462;12.813;0;58802;12418;418;31;84;1312;12;330;1122;4364;45936;3788;618;8705;83;57;66;0;94;27;216;651;47;148;95;384;5;112;55;122;0;37;0;75;2304;154;58;105;42;23;29;0;58;0;67;0;52;51;17;46;9076;14346;1.58065;0.177;L:\#Projekte\Holzmaar 2019 - HZM19\XRF\HMZ19\HZM19-10\HZM19-10-8\HZM19-10-8\XRF data\L000408.spe;124180;12418;13942;13750;14136;193
1456;374.8962;0.983459;0.904968;0.126955;1.00701;1.03558;1.00246;0.991246;1.0203;1.03003;1.00843;1.00447;13.1495;0;58829;12445;445;0;79;1264;0;251;1131;4564;48010;3765;719;8531;80;39;88;0;25;21;159;585;18;154;36;373;0;200;58;109;36;72;66;0;2354;142;57;79;0;0;0;0;0;71;69;92;58;0;0;39;9375;14897;1.58901;0.179;L:\#Projekte\Holzmaar 2019 - HZM19\XRF\HMZ19\HZM19-10\HZM19-10-8\HZM19-10-8\XRF data\L000435.spe;124450;12445;13971;13779;14171;196
1483;401.8962;0.987904;0.916896;0.13349;1.00804;1.03787;1.00192;0.991035;1.02059;1.03085;1.00669;1.00384;13.8123;0;58856;12472;472;14;55;1355;0;253;1108;4108;48665;3501;656;8333;80;122;83;0;35;0;152;586;12;179;72;349;29;159;34;171;6;7;73;37;2351;106;35;88;0;0;50;0;0;0;66;0;41;11;100;61;9442;14344;1.51917;0.181;L:\#Projekte\Holzmaar 2019 - HZM19\XRF\HMZ19\HZM19-10\HZM19-10-8\HZM19-10-8\XRF data\L000462.spe;124720;12472;14001;13806;14204;199
1510;428.8962;0.988412;0.903117;0.121651;1.00947;1.04724;1.00141;0.997372;1.01896;1.03822;1.00756;1.00527;16.519;0;58883;12499;499;0;71;1251;0;295;1172;2980;63493;2797;830;6839;99;55;70;0;67;0;119;710;17;163;80;399;6;114;26;110;0;20;0;60;2008;94;142;29;0;0;0;0;58;51;0;0;38;26;49;75;9058;13848;1.52881;0.186;L:\#Projekte\Holzmaar 2019 - HZM19\XRF\HMZ19\HZM19-10\HZM19-10-8\HZM19-10-8\XRF data\L000489.spe;124990;12499;14030;13834;14235;200.5
1537;455.8962;0.992299;0.909252;0.137614;1.01069;1.0541;1.00197;0.991466;1.02799;1.04179;1.00625;1.00395;18.4984;0;58910;12526;526;6;80;1323;0;465;1135;2614;51295;2297;1535;8886;61;121;99;0;0;0;86;490;23;142;35;436;0;86;26;151;0;0;19;10;2319;104;111;85;0;22;64;0;38;117;68;0;36;99;38;65;9372;15117;1.613;0.184;L:\#Projekte\Holzmaar 2019 - HZM19\XRF\HMZ19\HZM19-10\HZM19-10-8\HZM19-10-8\XRF data\L000516.spe;125260;12526;14060;13862;14268;203
1564;482.8962;0.98752;0.892315;0.13866;1.00805;1.05218;1.00142;0.988616;1.02621;1.04045;1.00701;1.00428;17.9438;0;58937;12553;553;18;63;1398;0;554;1152;4460;29546;3774;870;12603;58;121;101;0;52;48;125;429;23;178;29;155;26;179;50;153;33;0;30;143;2826;136;20;82;7;0;36;0;75;33;98;0;63;8;57;15;9822;15185;1.54602;0.176;L:\#Projekte\Holzmaar 2019 - HZM19\XRF\HMZ19\HZM19-10\HZM19-10-8\HZM19-10-8\XRF data\L000543.spe;125530;12553;14090;13892;14301;204.5
1591;509.8962;0.987346;0.912043;0.109991;1.00621;1.03179;1.00201;0.991908;1.02191;1.02901;1.0071;1.00506;12.0562;0;58964;12580;580;0;86;1274;0;460;1191;4514;38585;3862;624;10671;70;75;79;0;37;0;214;400;0;181;88;247;42;194;31;160;18;26;55;77;2447;190;20;101;0;0;43;0;38;69;114;0;18;71;100;48;8966;13819;1.54127;0.171;L:\#Projekte\Holzmaar 2019 - HZM19\XRF\HMZ19\HZM19-10\HZM19-10-8\HZM19-10-8\XRF data\L000570.spe;125800;12580;14120;13920;14335;207.5
1618;536.8962;0.989936;0.910205;0.133068;1.00829;1.04131;1.00244;0.989152;1.02081;1.03227;1.00675;1.00343;14.8058;0;58991;12607;607;0;80;1558;28;311;1190;6444;19086;5697;1349;13099;30;148;107;7;0;22;202;370;0;235;67;134;12;244;72;134;0;0;47;159;2342;182;0;67;0;0;117;39;53;112;120;0;11;0;48;45;9646;14657;1.51949;0.166;L:\#Projekte\Holzmaar 2019 - HZM19\XRF\HMZ19\HZM19-10\HZM19-10-8\HZM19-10-8\XRF data\L000597.spe;126070;12607;14149;13952;14364;206
1645;563.8962;0.990872;0.896127;0.132379;1.01047;1.07054;1.00303;0.993209;1.02903;1.05342;1.00532;1.00554;23.2488;0;59018;12634;634;0;41;1080;0;294;1130;2251;40944;1853;741;6892;114;63;28;0;76;38;138;497;25;214;39;363;31;131;16;133;34;31;35;73;2866;92;30;24;0;0;0;0;81;0;38;13;0;73;94;150;11311;14959;1.32252;0.183;L:\#Projekte\Holzmaar 2019 - HZM19\XRF\HMZ19\HZM19-10\HZM19-10-8\HZM19-10-8\XRF data\L000624.spe;126340;12634;14178;13981;14398;208.5
1672;590.8962;0.990901;0.904688;0.123435;1.00775;1.05953;1.00184;0.991983;1.02553;1.04661;1.00811;1.00432;20.0697;0;59045;12661;661;0;29;1190;0;274;1097;2279;38146;2046;743;7396;78;49;56;0;31;129;98;471;0;173;56;286;35;197;55;119;20;64;94;184;2698;143;66;94;0;0;12;0;43;0;26;0;24;29;27;59;11553;15550;1.34597;0.18;L:\#Projekte\Holzmaar 2019 - HZM19\XRF\HMZ19\HZM19-10\HZM19-10-8\HZM19-10-8\XRF data\L000651.spe;126610;12661;14208;14012;14426;207
1699;617.8962;0.990314;0.919417;0.113726;1.00212;1.0318;1.00134;0.990062;1.01898;1.02974;1.00868;1.00547;12.0579;0;59072;12688;688;15;159;1777;0;346;1126;7486;43910;7463;487;16068;166;141;100;77;0;0;311;429;0;446;110;226;16;201;45;94;76;21;22;0;1778;275;0;86;0;25;21;0;7;0;74;133;56;120;109;14;6091;12629;2.07339;0.163;L:\#Projekte\Holzmaar 2019 - HZM19\XRF\HMZ19\HZM19-10\HZM19-10-8\HZM19-10-8\XRF data\L000678.spe;126880;12688;14238;14041;14459;209
1726;644.8962;0.991033;0.913859;0.133611;1.00686;1.04509;1.00154;0.990093;1.02363;1.0387;1.00599;1.00384;15.8964;0;59099;12715;715;0;47;1063;0;373;1154;3383;83386;2603;582;7380;129;8;36;0;23;0;63;758;36;171;47;639;0;189;69;74;0;8;74;0;1988;81;21;0;0;0;5;0;0;12;39;71;8;53;80;0;8354;13120;1.57051;0.196;L:\#Projekte\Holzmaar 2019 - HZM19\XRF\HMZ19\HZM19-10\HZM19-10-8\HZM19-10-8\XRF data\L000705.spe;127150;12715;14267;14069;14489;210
1753;671.8962;0.987509;0.898047;0.12046;1.00839;1.05331;1.00194;0.991201;1.02719;1.04075;1.00686;1.0047;18.2729;0;59126;12742;742;0;63;1043;0;411;1022;2209;71122;1971;1648;7078;138;41;57;0;35;33;181;673;38;164;30;547;8;38;25;156;0;10;90;32;2260;94;77;10;0;38;57;0;0;35;17;27;0;8;75;99;9473;13907;1.46807;0.197;L:\#Projekte\Holzmaar 2019 - HZM19\XRF\HMZ19\HZM19-10\HZM19-10-8\HZM19-10-8\XRF data\L000732.spe;127420;12742;14296;14101;14520;209.5
1780;698.8962;0.992343;0.91387;0.110864;1.00999;1.05772;1.00242;0.990664;1.02827;1.04583;1.00728;1.00444;19.5461;0;59153;12769;769;8;18;1048;0;308;1189;2262;53314;1913;610;6276;107;42;54;0;11;10;151;595;12;158;83;383;38;118;85;164;11;6;12;0;2178;113;67;37;0;14;51;31;0;74;63;134;0;84;63;95;10410;14406;1.38386;0.185;L:\#Projekte\Holzmaar 2019 - HZM19\XRF\HMZ19\HZM19-10\HZM19-10-8\HZM19-10-8\XRF data\L000759.spe;127690;12769;14325;14132;14551;209.5
1807;725.8962;0.993589;0.908336;0.151699;1.0054;1.05913;1.00048;0.992462;1.01708;1.04655;1.0071;1.00529;19.9527;0;59180;12796;796;0;48;1037;0;260;1105;1720;116844;1239;500;4219;182;20;42;0;0;16;118;1021;27;76;31;773;0;49;5;62;0;8;39;121;1817;31;60;25;0;19;0;7;0;8;97;0;44;0;0;65;7564;12580;1.66314;0.222;L:\#Projekte\Holzmaar 2019 - HZM19\XRF\HMZ19\HZM19-10\HZM19-10-8\HZM19-10-8\XRF data\L000786.spe;127960;12796;14353;14158;14582;212
1834;752.8962;0.988681;0.894764;0.13898;1.00655;1.06108;0.999919;0.996888;1.01791;1.04575;1.00952;1.00605;20.5148;0;59207;12823;823;0;43;970;0;228;1242;2559;71547;2350;462;5642;124;23;58;0;16;24;94;731;80;231;100;433;18;104;44;79;0;36;36;72;2029;121;129;44;5;0;41;8;0;65;105;26;42;69;49;39;8125;12516;1.54043;0.18;L:\#Projekte\Holzmaar 2019 - HZM19\XRF\HMZ19\HZM19-10\HZM19-10-8\HZM19-10-8\XRF data\L000813.spe;128230;12823;14381;14185;14613;214
1861;779.8962;0.996873;0.896796;0.21882;1.00713;1.05989;1.00114;0.992228;1.01645;1.04477;1.00508;1.00434;20.1734;0;59234;12850;850;0;63;598;0;149;1148;1875;164966;1113;546;3293;321;0;0;0;60;35;77;1028;55;83;88;969;0;47;0;96;0;39;0;135;1555;0;109;0;0;0;0;0;0;0;0;0;0;0;80;80;5787;10109;1.74685;0.255;L:\#Projekte\Holzmaar 2019 - HZM19\XRF\HMZ19\HZM19-10\HZM19-10-8\HZM19-10-8\XRF data\L000840.spe;128500;12850;14408;14211;14642;215.5
1888;806.8962;0.989577;0.918333;0.12914;1.00506;1.02822;1.00157;0.990113;1.02009;1.02597;1.00645;1.0066;11.0245;0;59261;12877;877;0;101;1233;0;529;1230;5431;58188;4992;431;11599;113;92;64;24;0;7;141;594;69;319;44;525;11;187;25;154;41;0;65;50;2070;255;93;23;44;16;36;0;0;0;68;0;13;10;70;47;8255;12427;1.50539;0.174;L:\#Projekte\Holzmaar 2019 - HZM19\XRF\HMZ19\HZM19-10\HZM19-10-8\HZM19-10-8\XRF data\L000867.spe;128770;12877;14435;14241;14670;214.5
1915;3.7734;0.984296;0.907112;0.133896;1.00237;1.01533;1.00283;0.982295;1.01277;1.01342;1.00687;1.00314;7.30113;0;59288;12904;327;0;100;1972;7;296;1168;8012;24070;7302;644;18721;61;80;101;57;56;0;244;361;0;206;126;148;6;171;27;118;56;96;84;29;1959;231;0;507;357;151;111;132;40;54;140;51;41;87;69;54;7031;11177;1.58967;0.158;L:\#Projekte\Holzmaar - Diatoms\HZM19-11_Lujan\HZM19_11_08_W\HZM19-11-8\HZM19_11_08_lujan\XRF data\L000127.spe;129040;12904;14462;14269;14698;214.5
1942;30.7734;0.992481;0.940557;0.118061;0.997557;1.00755;1.00123;0.989704;1.00566;1.01329;1.00869;1.00425;5.05292;0;59315;12931;354;;;;;;;;;;;;;;;;;;;;;;;;;;;;;;;;;;;;;;;;;;;;;;;;;;#DIV/0!;0.142;L:\#Projekte\Holzmaar - Diatoms\HZM19-11_Lujan\HZM19_11_08_W\HZM19-11-8\HZM19_11_08_lujan\XRF data\L000154.spe;129310;12931;14489;14290;14726;218
1969;57.7734;0.983204;0.901478;0.106061;0.992068;0.99817;0.999566;0.995403;1.00108;1.01671;1.0148;1.00646;0;0;59342;12958;381;0;183;2328;26;197;1114;10157;4353;8935;996;20093;30;77;112;28;48;22;318;235;0;214;139;15;12;173;111;133;84;88;53;10;2124;341;57;480;402;190;134;132;50;78;136;20;0;26;31;63;6350;12416;1.95528;0.15;L:\#Projekte\Holzmaar - Diatoms\HZM19-11_Lujan\HZM19_11_08_W\HZM19-11-8\HZM19_11_08_lujan\XRF data\L000181.spe;129580;12958;14515;14313;14760;223.5
1996;84.7734;0.990023;0.929682;0.12836;0.998612;1.00682;1.00216;0.986996;1.00416;1.0125;1.00964;1.00327;4.84062;0;59369;12985;408;8;193;2071;12;115;1201;10631;4010;9831;807;21252;87;138;191;131;68;12;320;270;13;195;110;0;0;314;101;75;87;34;113;76;2031;335;8;518;377;168;167;131;52;78;136;0;51;6;31;0;6748;12731;1.88663;0.153;L:\#Projekte\Holzmaar - Diatoms\HZM19-11_Lujan\HZM19_11_08_W\HZM19-11-8\HZM19_11_08_lujan\XRF data\L000208.spe;129850;12985;14541;14336;14792;228
2023;111.7734;0.991266;0.94126;0.144968;0.998183;1.00704;1.00125;0.988118;1.00283;1.01074;1.00938;1.00306;4.90453;0;59396;13012;435;0;181;1962;48;77;1213;10112;4628;8952;710;19575;76;134;132;66;39;9;331;251;8;256;142;28;36;466;68;100;147;18;72;148;2034;349;45;432;386;203;237;205;19;80;242;6;36;78;83;0;6814;11533;1.69254;0.149;L:\#Projekte\Holzmaar - Diatoms\HZM19-11_Lujan\HZM19_11_08_W\HZM19-11-8\HZM19_11_08_lujan\XRF data\L000235.spe;130120;13012;14567;14358;14823;232.5
2050;138.7734;0.996197;0.95728;0.122552;1.00064;1.01349;1.00053;0.992396;1.00476;1.01538;1.00814;1.00397;6.76803;0;59423;13039;462;19;196;1960;98;161;1228;9878;5572;9317;674;25622;28;94;90;94;39;0;319;219;0;267;159;10;18;430;92;98;118;49;21;48;2166;298;0;435;335;170;211;137;169;163;164;53;32;139;136;0;7183;13445;1.87178;0.161;L:\#Projekte\Holzmaar - Diatoms\HZM19-11_Lujan\HZM19_11_08_W\HZM19-11-8\HZM19_11_08_lujan\XRF data\L000262.spe;130390;13039;14592;14376;14855;239.5
2077;165.7734;0.990841;0.935959;0.109803;0.998193;1.00388;1.00098;0.991265;1.00574;1.01192;1.0109;1.00424;3.99104;0;59450;13066;489;13;197;2366;40;135;1113;10755;9347;10150;407;23451;86;82;122;84;76;28;327;294;0;220;232;38;39;321;108;93;79;112;48;20;1817;364;20;536;382;257;155;182;78;148;179;82;19;146;49;0;6086;13784;2.26487;0.157;L:\#Projekte\Holzmaar - Diatoms\HZM19-11_Lujan\HZM19_11_08_W\HZM19-11-8\HZM19_11_08_lujan\XRF data\L000289.spe;130660;13066;14618;14398;14883;242.5
2104;192.7734;0.996135;0.947084;0.156185;0.997028;1.00483;1.00196;0.990102;1.00289;1.00909;1.00826;1.00412;4.26774;0;59477;13093;516;0;177;2073;58;171;1143;10451;7050;8471;1434;34487;60;93;157;53;52;0;344;267;0;233;73;5;0;353;135;54;172;62;29;0;2297;506;13;511;402;184;161;173;25;96;118;142;26;239;154;0;6543;13378;2.04463;0.17;L:\#Projekte\Holzmaar - Diatoms\HZM19-11_Lujan\HZM19_11_08_W\HZM19-11-8\HZM19_11_08_lujan\XRF data\L000316.spe;130930;13093;14644;14419;14915;248
2131;219.7734;0.994516;0.953712;0.118241;0.99997;1.00629;1.00153;0.989997;1.00841;1.01224;1.00968;1.00376;4.68796;0;59504;13120;543;0;182;2318;38;83;1135;10763;8631;10033;409;22654;70;122;138;89;53;18;274;261;47;239;166;22;17;468;100;113;90;39;29;99;2001;364;7;533;408;239;175;133;5;113;136;0;14;47;34;0;6223;12541;2.01527;0.154;L:\#Projekte\Holzmaar - Diatoms\HZM19-11_Lujan\HZM19_11_08_W\HZM19-11-8\HZM19_11_08_lujan\XRF data\L000343.spe;131200;13120;14670;14440;14945;252.5
2158;246.7734;0.994003;0.948763;0.138924;0.998843;1.00465;1.00186;0.990028;1.00384;1.01;1.00991;1.00479;4.21429;0;59531;13147;570;18;234;2288;56;78;1182;10762;9334;10344;558;23668;68;65;139;79;44;22;401;281;51;209;162;91;25;492;128;20;82;139;36;100;2091;308;56;464;400;153;175;78;60;135;158;0;31;94;95;0;6259;12638;2.01917;0.155;L:\#Projekte\Holzmaar - Diatoms\HZM19-11_Lujan\HZM19_11_08_W\HZM19-11-8\HZM19_11_08_lujan\XRF data\L000370.spe;131470;13147;14696;14462;14977;257.5
2185;273.7734;0.995658;0.939337;0.15376;0.998437;1.00726;1.00207;0.991173;1.00293;1.01238;1.00753;1.00419;4.96917;0;59558;13174;597;0;163;1925;32;189;1177;10731;5353;9017;774;28574;42;73;141;73;0;35;219;194;17;249;149;0;16;357;102;71;101;77;59;5;2065;481;14;455;294;160;151;84;18;152;175;82;16;29;61;0;6908;13669;1.97872;0.162;L:\#Projekte\Holzmaar - Diatoms\HZM19-11_Lujan\HZM19_11_08_W\HZM19-11-8\HZM19_11_08_lujan\XRF data\L000397.spe;131740;13174;14722;14481;15010;264.5
2212;300.7734;0.992578;0.920452;0.156296;0.996325;1.00437;1.00113;0.989998;1.0017;1.00957;1.00835;1.00492;4.13387;0;59585;13201;624;12;184;2353;38;72;1166;10685;7992;9916;1265;29270;36;114;96;43;39;0;319;288;42;304;190;38;4;265;66;183;122;58;0;0;2301;482;60;438;275;155;126;185;0;47;75;76;0;26;0;27;6122;13971;2.2821;0.165;L:\#Projekte\Holzmaar - Diatoms\HZM19-11_Lujan\HZM19_11_08_W\HZM19-11-8\HZM19_11_08_lujan\XRF data\L000424.spe;132010;13201;14748;14505;15041;268
2239;327.7734;0.996754;0.938778;0.157084;0.997833;1.00607;1.00223;0.98933;1.00265;1.00884;1.00858;1.00341;4.62559;0;59612;13228;651;9;229;2439;32;32;1137;10723;6086;9612;1152;26472;22;48;81;79;42;0;333;276;58;479;148;0;21;300;99;122;152;44;0;102;1991;355;9;336;379;80;178;153;29;55;149;10;60;132;68;20;6306;12465;1.97669;0.16;L:\#Projekte\Holzmaar - Diatoms\HZM19-11_Lujan\HZM19_11_08_W\HZM19-11-8\HZM19_11_08_lujan\XRF data\L000451.spe;132280;13228;14774;14526;15069;271.5
2266;354.7734;0.994649;0.938944;0.144861;0.998807;1.00713;1.00192;0.989503;1.00512;1.01053;1.00809;1.0048;4.93013;0;59639;13255;678;0;204;2297;33;53;1107;11280;5083;9725;643;24474;68;90;104;68;64;0;288;289;0;480;105;47;0;395;69;171;92;96;52;51;2266;373;69;495;370;194;162;116;5;116;91;62;22;85;8;0;6464;14198;2.19647;0.159;L:\#Projekte\Holzmaar - Diatoms\HZM19-11_Lujan\HZM19_11_08_W\HZM19-11-8\HZM19_11_08_lujan\XRF data\L000478.spe;132550;13255;14799;14548;15097;274.5
2293;381.7734;0.996723;0.941312;0.153369;0.99822;1.00565;1.0012;0.99094;1.00247;1.01075;1.00762;1.00361;4.50296;0;59666;13282;705;0;211;2009;51;37;1157;11680;5158;9659;708;27556;61;77;118;93;52;0;401;286;52;509;162;0;21;446;110;75;170;68;23;87;2468;533;89;465;354;165;171;242;61;60;53;21;64;47;72;0;6973;13377;1.9184;0.164;L:\#Projekte\Holzmaar - Diatoms\HZM19-11_Lujan\HZM19_11_08_W\HZM19-11-8\HZM19_11_08_lujan\XRF data\L000505.spe;132820;13282;14825;14570;15127;278.5
2320;408.7734;0.997365;0.952895;0.142962;0.998448;1.00645;1.0021;0.99083;1.00392;1.01023;1.00914;1.00402;4.73534;0;59693;13309;732;17;187;2046;31;34;1192;11291;5643;9418;364;23508;70;110;91;62;63;0;320;284;0;558;155;17;25;358;74;87;131;82;51;70;2374;395;10;441;397;98;161;160;65;44;146;99;31;15;0;0;7271;13512;1.85834;0.162;L:\#Projekte\Holzmaar - Diatoms\HZM19-11_Lujan\HZM19_11_08_W\HZM19-11-8\HZM19_11_08_lujan\XRF data\L000532.spe;133090;13309;14851;14591;15156;282.5
2347;435.7734;0.994656;0.957144;0.143203;0.999595;1.00624;1.00326;0.98888;1.00587;1.0107;1.00964;1.00443;4.67389;0;59720;13336;759;0;167;2297;46;72;1185;8892;5650;8504;184;20707;86;121;125;111;0;0;335;164;21;533;161;34;29;247;55;182;151;16;48;71;1817;416;26;479;448;162;156;156;25;168;148;55;25;13;86;0;6180;12305;1.9911;0.143;L:\#Projekte\Holzmaar - Diatoms\HZM19-11_Lujan\HZM19_11_08_W\HZM19-11-8\HZM19_11_08_lujan\XRF data\L000559.spe;133360;13336;14877;14614;15186;286
2374;462.7734;0.987701;0.908127;0.160598;0.997753;1.00307;1.00288;0.983319;1.00372;1.0076;1.00832;1.00247;3.757;0;59747;13363;786;31;203;2380;11;25;1072;9715;11529;8465;1884;34987;17;79;121;105;111;69;281;272;29;536;137;57;0;312;96;107;212;28;83;112;1950;540;17;438;396;182;127;169;38;94;160;0;32;172;69;0;6109;12350;2.02161;0.167;L:\#Projekte\Holzmaar - Diatoms\HZM19-11_Lujan\HZM19_11_08_W\HZM19-11-8\HZM19_11_08_lujan\XRF data\L000586.spe;133630;13363;14902;14635;15213;289
2401;489.7734;0.99044;0.920818;0.133702;0.997589;1.00382;1.00196;0.987795;1.00391;1.0093;1.00891;1.00326;3.97506;0;59774;13390;813;17;213;2169;0;47;1137;9901;10807;9184;583;23695;47;40;104;10;63;20;335;287;99;792;144;76;9;256;55;219;120;172;110;95;2026;369;42;472;389;140;83;131;0;48;130;0;41;86;66;9;6616;12996;1.96433;0.159;L:\#Projekte\Holzmaar - Diatoms\HZM19-11_Lujan\HZM19_11_08_W\HZM19-11-8\HZM19_11_08_lujan\XRF data\L000613.spe;133900;13390;14928;14658;15240;291
2428;516.7734;0.995928;0.954591;0.147635;0.996619;1.00632;1.00046;0.990379;1.00414;1.01123;1.00918;1.00406;4.69802;0;59801;13417;840;0;231;2262;35;36;1122;11240;3788;10211;322;21847;88;84;139;118;50;0;315;210;73;742;142;12;22;325;59;163;145;86;37;71;2209;391;28;495;431;217;113;104;13;113;118;50;0;87;0;17;6933;13477;1.94389;0.158;L:\#Projekte\Holzmaar - Diatoms\HZM19-11_Lujan\HZM19_11_08_W\HZM19-11-8\HZM19_11_08_lujan\XRF data\L000640.spe;134170;13417;14954;14682;15267;292.5
2455;543.7734;0.992412;0.938085;0.139494;1.00028;1.00514;1.00166;0.989845;1.00384;1.01212;1.00912;1.00355;4.35538;0;59828;13444;867;31;184;2047;50;58;1076;10288;5378;9174;1461;29647;73;126;137;76;19;0;310;238;67;633;129;0;0;341;66;151;143;89;50;53;2356;456;59;577;393;192;122;166;0;84;153;78;31;130;51;0;7152;13229;1.84969;0.163;L:\#Projekte\Holzmaar - Diatoms\HZM19-11_Lujan\HZM19_11_08_W\HZM19-11-8\HZM19_11_08_lujan\XRF data\L000667.spe;134440;13444;14979;14703;15297;297
2482;570.7734;0.999218;0.949677;0.182308;1.00011;1.00586;1.00228;0.989765;1.00569;1.01243;1.00828;1.00389;4.56419;0;59855;13471;894;15;214;2544;41;131;1117;10974;4333;9786;686;24666;63;46;96;30;29;0;314;253;72;794;150;12;14;514;141;87;161;125;34;91;2054;371;32;471;442;149;70;77;21;64;100;0;0;0;57;0;6505;13275;2.04074;0.158;L:\#Projekte\Holzmaar - Diatoms\HZM19-11_Lujan\HZM19_11_08_W\HZM19-11-8\HZM19_11_08_lujan\XRF data\L000694.spe;134710;13471;15005;14726;15327;300.5
2509;597.7734;0.995562;0.918375;0.110925;0.995883;1.00614;1.00138;0.989544;1.00282;1.01144;1.00901;1.00442;4.64442;0;59882;13498;921;0;154;2192;34;193;1120;10352;3785;9456;433;23327;80;93;144;75;30;0;286;256;64;654;149;0;16;409;116;169;152;89;78;56;2148;353;42;489;352;163;98;185;18;63;129;0;0;80;100;0;7028;13421;1.90965;0.158;L:\#Projekte\Holzmaar - Diatoms\HZM19-11_Lujan\HZM19_11_08_W\HZM19-11-8\HZM19_11_08_lujan\XRF data\L000721.spe;134980;13498;15032;14747;15356;304.5
2536;624.7734;0.99123;0.898248;0.0875655;0.996569;1.00931;1.00099;0.99327;1.00634;1.01648;1.01063;1.00605;5.56125;0;59909;13525;948;17;216;2212;27;66;1105;11377;3637;9942;538;27532;70;144;162;130;9;22;382;263;84;623;175;0;29;374;118;199;156;0;73;110;2358;453;5;527;461;217;219;218;37;151;152;0;56;66;27;0;6895;13935;2.02103;0.167;L:\#Projekte\Holzmaar - Diatoms\HZM19-11_Lujan\HZM19_11_08_W\HZM19-11-8\HZM19_11_08_lujan\XRF data\L000748.spe;135250;13525;15057;14768;15385;308.5
2563;651.7734;0.992427;0.938513;0.135611;0.99721;1.00796;1.00067;0.988829;1.00551;1.0134;1.00993;1.00322;5.17188;0;59936;13552;975;25;240;2288;22;62;1138;11912;3715;10152;298;24107;85;55;148;130;35;0;335;297;0;665;158;0;49;468;113;142;153;121;96;76;2397;366;8;461;433;129;125;90;27;127;136;0;0;35;101;0;7413;13982;1.88615;0.163;L:\#Projekte\Holzmaar - Diatoms\HZM19-11_Lujan\HZM19_11_08_W\HZM19-11-8\HZM19_11_08_lujan\XRF data\L000775.spe;135520;13552;15083;14789;15416;313.5
2590;678.7734;0.993792;0.946623;0.118444;0.996225;1.00982;1.00159;0.985539;1.00443;1.01305;1.00826;1.00379;5.70769;0;59963;13579;1002;9;241;2459;33;60;1073;11535;3233;10433;292;22333;53;63;138;56;0;0;331;258;49;678;211;0;20;490;110;166;116;115;54;111;2207;333;0;568;413;109;90;93;7;119;192;0;0;138;177;0;6619;14494;2.18976;0.158;L:\#Projekte\Holzmaar - Diatoms\HZM19-11_Lujan\HZM19_11_08_W\HZM19-11-8\HZM19_11_08_lujan\XRF data\L000802.spe;135790;13579;15109;14811;15446;317.5
2617;705.7734;0.993593;0.947815;0.147971;0.996982;1.00374;1.0018;0.991635;1.00288;1.01094;1.01021;1.0038;3.95117;0;59990;13606;1029;9;256;2472;35;44;1049;12772;4007;10720;487;27197;75;91;108;75;79;0;404;282;106;745;217;12;50;490;119;148;184;32;60;15;2440;487;28;460;360;182;133;154;102;83;69;60;50;21;46;0;7040;14542;2.065625;0.172;L:\#Projekte\Holzmaar - Diatoms\HZM19-11_Lujan\HZM19_11_08_W\HZM19-11-8\HZM19_11_08_lujan\XRF data\L000829.spe;136060;13606;15135;14833;15473;320
2644;732.7734;0.991126;0.943542;0.137577;0.998437;1.00422;1.00102;0.988092;1.00299;1.01052;1.01008;1.00479;4.0913;0;60017;13633;1056;11;275;2656;0;63;1058;12588;3497;11033;361;24390;55;77;140;138;12;0;399;301;99;641;228;0;36;538;114;123;168;139;36;0;2280;418;0;577;405;184;117;105;36;190;112;110;0;0;22;0;7083;15790;2.22928;0.167;L:\#Projekte\Holzmaar - Diatoms\HZM19-11_Lujan\HZM19_11_08_W\HZM19-11-8\HZM19_11_08_lujan\XRF data\L000856.spe;136330;13633;15161;14854;15501;323.5
2671;759.7734;0.997335;0.959925;0.139979;1.00086;1.00779;1.00317;0.989132;1.00606;1.01248;1.00874;1.00379;5.12155;0;60044;13660;1083;49;250;2525;37;38;1128;11781;3426;10163;384;24916;84;100;121;43;0;0;344;255;89;713;201;15;33;384;105;131;177;137;0;0;2219;449;65;514;378;127;105;165;50;131;36;121;0;52;65;0;6828;13179;1.93014;0.16;L:\#Projekte\Holzmaar - Diatoms\HZM19-11_Lujan\HZM19_11_08_W\HZM19-11-8\HZM19_11_08_lujan\XRF data\L000883.spe;136600;13660;15187;14877;15531;327
2698;786.7734;0.994572;0.949433;0.144451;0.998373;1.00516;1.00109;0.991764;1.00314;1.01114;1.00994;1.00498;4.36105;0;60071;13687;1110;18;259;2627;24;15;1158;12121;3433;10302;329;24909;67;54;156;47;0;0;396;225;68;689;165;0;25;288;79;185;145;131;6;33;2275;377;83;494;304;151;116;133;65;59;95;24;0;0;58;15;6402;12805;2.00016;0.159;L:\#Projekte\Holzmaar - Diatoms\HZM19-11_Lujan\HZM19_11_08_W\HZM19-11-8\HZM19_11_08_lujan\XRF data\L000910.spe;136870;13687;15212;14900;15562;331
2725;813.7734;0.992997;0.947266;0.0769602;1.00774;1.01381;1.0049;0.990686;1.04557;1.03119;1.01291;1.00688;6.86085;0;60098;13714;1137;24;214;2262;44;31;1159;10905;3283;9525;453;26251;72;82;129;52;0;0;330;202;79;638;169;0;37;352;69;125;181;146;0;24;2296;444;55;443;338;168;156;53;0;129;99;28;0;72;64;0;6502;13978;2.1498;0.158;L:\#Projekte\Holzmaar - Diatoms\HZM19-11_Lujan\HZM19_11_08_W\HZM19-11-8\HZM19_11_08_lujan\XRF data\L000937.spe;137140;13714;15238;14923;15588;332.5
2752;840.7734;0.991764;0.949745;0.144415;0.998658;1.00395;1.00265;0.988834;1.00318;1.01144;1.01015;1.00561;4.01253;0;60125;13741;1164;31;253;2657;7;10;1101;11840;3634;10128;471;25009;62;79;144;111;20;0;386;180;0;767;193;0;14;304;59;171;156;113;63;69;2213;413;0;524;409;171;105;108;43;129;114;24;25;24;68;15;6082;13516;2.2223;0.16;L:\#Projekte\Holzmaar - Diatoms\HZM19-11_Lujan\HZM19_11_08_W\HZM19-11-8\HZM19_11_08_lujan\XRF data\L000964.spe;137410;13741;15265;14944;15615;335.5
2779;867.7734;0.992792;0.947948;0.137339;0.99887;1.00538;1.0013;0.987544;1.00394;1.00958;1.00994;1.00257;4.42448;0;60152;13768;1191;41;217;2681;35;0;1169;10616;5010;9592;968;33592;69;65;86;55;61;0;376;267;44;719;161;0;8;176;69;192;201;72;22;48;2259;501;61;486;392;110;114;117;0;69;116;4;0;96;86;45;5950;12484;2.09815;0.162;L:\#Projekte\Holzmaar - Diatoms\HZM19-11_Lujan\HZM19_11_08_W\HZM19-11-8\HZM19_11_08_lujan\XRF data\L000991.spe;137680;13768;15291;14967;15646;339.5
2806;894.7734;0.995316;0.957352;0.164277;0.997853;1.00446;1.00152;0.986419;1.00309;1.00913;1.00978;1.00301;4.15896;0;60179;13795;1218;28;243;2546;46;9;1126;11662;5816;9506;1287;42428;20;88;149;87;60;11;353;147;49;567;179;0;0;331;62;126;259;106;0;0;2293;576;78;464;358;194;106;165;67;110;48;121;0;138;44;0;6297;13127;2.08464;0.178;L:\#Projekte\Holzmaar - Diatoms\HZM19-11_Lujan\HZM19_11_08_W\HZM19-11-8\HZM19_11_08_lujan\XRF data\L001018.spe;137950;13795;15316;14991;15677;343
2833;NA;NA;NA;NA;NA;NA;NA;NA;NA;NA;NA;NA;NA;NA;60206;13822;1245;25;242;2605;50;38;1121;10897;4032;9688;408;25835;59;62;113;0;23;10;309;218;80;777;229;0;29;208;104;151;142;169;60;64;2262;386;30;513;372;156;26;74;0;159;142;65;0;148;70;44;6618;12980;1.96132;0.163;L:\#Projekte\Holzmaar - Diatoms\HZM19-11_Lujan\HZM19_11_08_W\HZM19-11-8\HZM19_11_08_lujan\XRF data\L001045.spe;138220;13822;15342;15016;15706;345